# beta(deg),gamma(deg)
180.000,0.000
90.000,0.267
120.000,0.444
60.000,0.622
138.590,0.800
75.522,0.978
104.478,1.156
41.410,1.333
151.045,1.511
82.819,1.689
112.024,1.867
51.318,2.044
128.682,2.222
67.976,2.400
97.181,2.578
28.955,2.756
159.636,2.933
86.417,3.111
115.944,3.289
55.771,3.467
133.433,3.644
71.790,3.822
100.807,4.000
35.659,4.178
144.341,4.356
79.193,4.533
108.210,4.711
46.567,4.889
124.229,5.067
64.056,5.244
93.583,5.422
20.364,5.600
165.638,5.778
88.209,5.956
117.953,6.133
57.910,6.311
135.951,6.489
73.665,6.667
102.636,6.844
38.625,7.022
147.538,7.200
81.011,7.378
110.106,7.556
48.986,7.733
126.424,7.911
66.031,8.089
95.379,8.267
25.008,8.444
154.992,8.622
84.621,8.800
113.969,8.978
53.576,9.156
131.014,9.333
69.894,9.511
98.989,9.689
32.462,9.867
141.375,10.044
77.364,10.222
106.335,10.400
44.049,10.578
122.090,10.756
62.047,10.933
91.791,11.111
14.362,11.289
169.858,11.467
89.105,11.644
118.972,11.822
58.961,12.000
137.254,12.178
74.596,12.356
103.555,12.533
40.037,12.711
149.246,12.889
81.916,13.067
111.062,13.244
50.162,13.422
127.544,13.600
67.007,13.778
96.279,13.956
27.048,14.133
157.202,14.311
85.519,14.489
114.953,14.667
54.681,14.844
132.212,15.022
70.845,15.200
99.897,15.378
34.093,15.556
142.833,15.733
78.280,15.911
107.270,16.089
45.322,16.267
123.153,16.444
63.056,16.622
92.687,16.800
17.612,16.978
162.388,17.156
87.313,17.333
116.944,17.511
56.847,17.689
134.678,17.867
72.730,18.044
101.720,18.222
37.167,18.400
145.907,18.578
80.103,18.756
109.155,18.933
47.788,19.111
125.319,19.289
65.047,19.467
94.481,19.644
22.798,19.822
152.952,20.000
83.721,20.178
112.993,20.356
52.456,20.533
129.838,20.711
68.938,20.889
98.084,21.067
30.754,21.244
139.963,21.422
76.445,21.600
105.404,21.778
42.746,21.956
121.039,22.133
61.028,22.311
90.895,22.489
10.142,22.667
172.833,22.844
89.552,23.022
119.484,23.200
59.482,23.378
137.918,23.556
75.060,23.733
104.016,23.911
40.728,24.089
150.133,24.267
82.368,24.444
111.542,24.622
50.742,24.800
128.111,24.978
67.492,25.156
96.730,25.333
28.016,25.511
158.386,25.689
85.968,25.867
115.448,26.044
55.228,26.222
132.819,26.400
71.318,26.578
100.352,26.756
34.884,26.933
143.580,27.111
78.737,27.289
107.739,27.467
45.948,27.644
123.689,27.822
63.557,28.000
93.135,28.178
19.036,28.356
163.933,28.533
87.761,28.711
117.448,28.889
57.380,29.067
135.311,29.244
73.198,29.422
102.177,29.600
37.902,29.778
146.714,29.956
80.557,30.133
109.630,30.311
48.390,30.489
125.869,30.667
65.540,30.844
94.930,31.022
23.927,31.200
153.953,31.378
84.171,31.556
113.481,31.733
53.018,31.911
130.424,32.089
69.417,32.267
98.536,32.444
31.618,32.622
140.664,32.800
76.905,32.978
105.869,33.156
43.401,33.333
121.563,33.511
61.539,33.689
91.343,33.867
12.429,34.044
167.571,34.222
88.657,34.400
118.461,34.578
58.437,34.756
136.599,34.933
74.131,35.111
103.095,35.289
39.336,35.467
148.382,35.644
81.464,35.822
110.583,36.000
49.576,36.178
126.982,36.356
66.519,36.533
95.829,36.711
26.047,36.889
156.073,37.067
85.070,37.244
114.460,37.422
54.131,37.600
131.610,37.778
70.370,37.956
99.443,38.133
33.286,38.311
142.098,38.489
77.823,38.667
106.802,38.844
44.689,39.022
122.620,39.200
62.552,39.378
92.239,39.556
16.067,39.733
160.964,39.911
86.865,40.089
116.443,40.267
56.311,40.444
134.052,40.622
72.261,40.800
101.263,40.978
36.420,41.156
145.116,41.333
79.648,41.511
108.682,41.689
47.181,41.867
124.772,42.044
64.552,42.222
94.032,42.400
21.614,42.578
151.984,42.756
83.270,42.933
112.508,43.111
51.889,43.289
129.258,43.467
68.458,43.644
97.632,43.822
29.867,44.000
139.272,44.178
75.984,44.356
104.940,44.533
42.082,44.711
120.518,44.889
60.516,45.067
90.448,45.244
7.167,45.422
174.934,45.600
89.776,45.778
119.742,45.956
59.741,46.133
138.253,46.311
75.291,46.489
104.246,46.667
41.070,46.844
150.586,47.022
82.594,47.200
111.783,47.378
51.031,47.556
128.396,47.733
67.734,47.911
96.955,48.089
28.489,48.267
159.002,48.444
86.192,48.622
115.696,48.800
55.500,48.978
133.125,49.156
71.554,49.333
100.579,49.511
35.273,49.689
143.959,49.867
78.965,50.044
107.975,50.222
46.258,50.400
123.959,50.578
63.806,50.756
93.359,50.933
19.711,51.111
164.762,51.289
87.985,51.467
117.700,51.644
57.645,51.822
135.630,52.000
73.432,52.178
102.406,52.356
38.265,52.533
147.124,52.711
80.784,52.889
109.867,53.067
48.688,53.244
126.146,53.422
65.785,53.600
95.155,53.778
24.473,53.956
154.468,54.133
84.396,54.311
113.725,54.489
53.298,54.667
130.719,54.844
69.656,55.022
98.763,55.200
32.042,55.378
141.018,55.556
77.135,55.733
106.102,55.911
43.726,56.089
121.826,56.267
61.793,56.444
91.567,56.622
13.430,56.800
168.657,56.978
88.881,57.156
118.716,57.333
58.699,57.511
136.926,57.689
74.364,57.867
103.325,58.044
39.688,58.222
148.812,58.400
81.690,58.578
110.822,58.756
49.869,58.933
127.263,59.111
66.763,59.289
96.054,59.467
26.552,59.644
156.631,59.822
85.295,60.000
114.706,60.178
54.406,60.356
131.910,60.533
70.608,60.711
99.670,60.889
33.692,61.067
142.464,61.244
78.052,61.422
107.036,61.600
45.006,61.778
122.886,61.956
62.804,62.133
92.463,62.311
16.857,62.489
161.662,62.667
87.089,62.844
116.694,63.022
56.579,63.200
134.364,63.378
72.495,63.556
101.491,63.733
36.795,63.911
145.509,64.089
79.876,64.267
108.918,64.444
47.485,64.622
125.045,64.800
64.800,64.978
94.256,65.156
22.214,65.333
152.464,65.511
83.495,65.689
112.750,65.867
52.173,66.044
129.548,66.222
68.698,66.400
97.858,66.578
30.313,66.756
139.616,66.933
76.215,67.111
105.172,67.289
42.415,67.467
120.778,67.644
60.772,67.822
90.671,68.000
8.780,68.178
171.220,68.356
89.329,68.533
119.228,68.711
59.222,68.889
137.585,69.067
74.828,69.244
103.785,69.422
40.384,69.600
149.687,69.778
82.142,69.956
111.302,70.133
50.452,70.311
127.827,70.489
67.250,70.667
96.505,70.844
27.536,71.022
157.786,71.200
85.744,71.378
115.200,71.556
54.955,71.733
132.515,71.911
71.082,72.089
100.124,72.267
34.491,72.444
143.205,72.622
78.509,72.800
107.505,72.978
45.636,73.156
123.421,73.333
63.306,73.511
92.911,73.689
18.338,73.867
163.143,74.044
87.537,74.222
117.196,74.400
57.114,74.578
134.994,74.756
72.964,74.933
101.948,75.111
37.536,75.289
146.308,75.467
80.330,75.644
109.392,75.822
48.090,76.000
125.594,76.178
65.294,76.356
94.705,76.533
23.369,76.711
153.448,76.889
83.946,77.067
113.237,77.244
52.737,77.422
130.131,77.600
69.178,77.778
98.310,77.956
31.188,78.133
140.312,78.311
76.675,78.489
105.636,78.667
43.074,78.844
121.301,79.022
61.284,79.200
91.119,79.378
11.343,79.556
166.570,79.733
88.433,79.911
118.207,80.089
58.174,80.267
136.274,80.444
73.898,80.622
102.865,80.800
38.982,80.978
147.958,81.156
81.237,81.333
110.344,81.511
49.281,81.689
126.702,81.867
66.275,82.044
95.604,82.222
25.532,82.400
155.527,82.578
84.845,82.756
114.215,82.933
53.854,83.111
131.312,83.289
70.133,83.467
99.216,83.644
32.876,83.822
141.735,84.000
77.594,84.178
106.568,84.356
44.370,84.533
122.355,84.711
62.300,84.889
92.015,85.067
15.238,85.244
160.289,85.422
86.641,85.600
116.194,85.778
56.041,85.956
133.742,86.133
72.025,86.311
101.035,86.489
36.041,86.667
144.727,86.844
79.421,87.022
108.446,87.200
46.875,87.378
124.500,87.556
64.304,87.733
93.808,87.911
20.998,88.089
151.511,88.267
83.045,88.444
112.266,88.622
51.604,88.800
128.969,88.978
68.217,89.156
97.406,89.333
29.414,89.511
138.930,89.689
75.754,89.867
104.709,90.044
41.747,90.222
120.259,90.400
60.258,90.578
90.224,90.756
5.066,90.933
176.418,91.111
89.888,91.289
119.871,91.467
59.871,91.644
138.421,91.822
75.407,92.000
104.362,92.178
41.240,92.356
150.815,92.533
82.706,92.711
111.904,92.889
51.174,93.067
128.539,93.244
67.855,93.422
97.068,93.600
28.723,93.778
159.317,93.956
86.305,94.133
115.820,94.311
55.636,94.489
133.279,94.667
71.672,94.844
100.693,95.022
35.467,95.200
144.149,95.378
79.079,95.556
108.092,95.733
46.413,95.911
124.094,96.089
63.931,96.267
93.471,96.444
20.040,96.622
165.194,96.800
88.097,96.978
117.827,97.156
57.778,97.333
135.791,97.511
73.549,97.689
102.521,97.867
38.445,98.044
147.330,98.222
80.897,98.400
109.986,98.578
48.837,98.756
126.285,98.933
65.908,99.111
95.267,99.289
24.742,99.467
154.729,99.644
84.508,99.822
113.847,100.000
53.437,100.178
130.866,100.356
69.775,100.533
98.876,100.711
32.253,100.889
141.196,101.067
77.250,101.244
106.218,101.422
43.887,101.600
121.958,101.778
61.920,101.956
91.679,102.133
13.903,102.311
169.241,102.489
88.993,102.667
118.844,102.844
58.830,103.022
137.090,103.200
74.480,103.378
103.440,103.556
39.863,103.733
149.028,103.911
81.803,104.089
110.942,104.267
50.016,104.444
127.403,104.622
66.885,104.800
96.167,104.978
26.801,105.156
156.915,105.333
85.407,105.511
114.830,105.689
54.544,105.867
132.061,106.044
70.726,106.222
99.783,106.400
33.893,106.578
142.648,106.756
78.166,106.933
107.153,107.111
45.164,107.289
123.019,107.467
62.930,107.644
92.575,107.822
17.239,108.000
162.021,108.178
87.201,108.356
116.819,108.533
56.713,108.711
134.521,108.889
72.613,109.067
101.605,109.244
36.982,109.422
145.707,109.600
79.990,109.778
109.037,109.956
47.637,110.133
125.182,110.311
64.923,110.489
94.369,110.667
22.508,110.844
152.707,111.022
83.608,111.200
112.872,111.378
52.314,111.556
129.693,111.733
68.818,111.911
97.971,112.089
30.534,112.267
139.789,112.444
76.330,112.622
105.288,112.800
42.580,112.978
120.909,113.156
60.900,113.333
90.783,113.511
9.485,113.689
171.986,113.867
89.440,114.044
119.356,114.222
59.352,114.400
137.751,114.578
74.944,114.756
103.900,114.933
40.556,115.111
149.909,115.289
82.255,115.467
111.422,115.644
50.597,115.822
127.969,116.000
67.371,116.178
96.617,116.356
27.777,116.533
158.084,116.711
85.856,116.889
115.324,117.067
55.092,117.244
132.667,117.422
71.200,117.600
100.238,117.778
34.688,117.956
143.392,118.133
78.623,118.311
107.622,118.489
45.792,118.667
123.555,118.844
63.432,119.022
93.023,119.200
18.690,119.378
163.533,119.556
87.649,119.733
117.322,119.911
57.247,120.089
135.152,120.267
73.081,120.444
102.063,120.622
37.719,120.800
146.510,120.978
80.444,121.156
109.511,121.333
48.240,121.511
125.731,121.689
65.417,121.867
94.818,122.044
23.650,122.222
153.700,122.400
84.058,122.578
113.359,122.756
52.878,122.933
130.277,123.111
69.298,123.289
98.423,123.467
31.404,123.644
140.487,123.822
76.790,124.000
105.753,124.178
43.238,124.356
121.432,124.533
61.412,124.711
91.231,124.889
11.898,125.067
167.061,125.244
88.545,125.422
118.334,125.600
58.305,125.778
136.436,125.956
74.015,126.133
102.980,126.311
39.160,126.489
148.169,126.667
81.350,126.844
110.463,127.022
49.429,127.200
126.842,127.378
66.397,127.556
95.717,127.733
25.791,127.911
155.798,128.089
84.958,128.267
114.337,128.444
53.993,128.622
131.461,128.800
70.252,128.978
99.329,129.156
33.082,129.333
141.916,129.511
77.708,129.689
106.685,129.867
44.529,130.044
122.487,130.222
62.426,130.400
92.127,130.578
15.658,130.756
160.624,130.933
86.753,131.111
116.318,131.289
56.176,131.467
133.897,131.644
72.143,131.822
101.149,132.000
36.231,132.178
144.921,132.356
79.535,132.533
108.564,132.711
47.028,132.889
124.636,133.067
64.428,133.244
93.920,133.422
21.308,133.600
151.746,133.778
83.157,133.956
112.387,134.133
51.747,134.311
129.114,134.489
68.337,134.667
97.519,134.844
29.641,135.022
139.101,135.200
75.869,135.378
104.825,135.556
41.915,135.733
120.388,135.911
60.387,136.089
90.336,136.267
6.205,136.444
173.795,136.622
89.664,136.800
119.613,136.978
59.612,137.156
138.085,137.333
75.175,137.511
104.131,137.689
40.899,137.867
150.359,138.044
82.481,138.222
111.663,138.400
50.886,138.578
128.253,138.756
67.613,138.933
96.843,139.111
28.254,139.289
158.692,139.467
86.080,139.644
115.572,139.822
55.364,140.000
132.972,140.178
71.436,140.356
100.465,140.533
35.079,140.711
143.769,140.889
78.851,141.067
107.857,141.244
46.103,141.422
123.824,141.600
63.682,141.778
93.247,141.956
19.376,142.133
164.342,142.311
87.873,142.489
117.574,142.667
57.513,142.844
135.471,143.022
73.315,143.200
102.292,143.378
38.084,143.556
146.918,143.733
80.671,143.911
109.748,144.089
48.539,144.267
126.007,144.444
65.663,144.622
95.042,144.800
24.202,144.978
154.209,145.156
84.283,145.333
113.603,145.511
53.158,145.689
130.571,145.867
69.537,146.044
98.650,146.222
31.831,146.400
140.840,146.578
77.020,146.756
105.985,146.933
43.564,147.111
121.695,147.289
61.666,147.467
91.455,147.644
12.939,147.822
168.102,148.000
88.769,148.178
118.588,148.356
58.568,148.533
136.762,148.711
74.247,148.889
103.210,149.067
39.513,149.244
148.596,149.422
81.577,149.600
110.702,149.778
49.723,149.956
127.122,150.133
66.641,150.311
95.942,150.489
26.300,150.667
156.350,150.844
85.182,151.022
114.583,151.200
54.269,151.378
131.760,151.556
70.489,151.733
99.556,151.911
33.490,152.089
142.281,152.267
77.937,152.444
106.919,152.622
44.848,152.800
122.753,152.978
62.678,153.156
92.351,153.333
16.467,153.511
161.310,153.689
86.977,153.867
116.568,154.044
56.445,154.222
134.208,154.400
72.378,154.578
101.377,154.756
36.608,154.933
145.312,155.111
79.762,155.289
108.800,155.467
47.333,155.644
124.908,155.822
64.676,156.000
94.144,156.178
21.916,156.356
152.223,156.533
83.383,156.711
112.629,156.889
52.031,157.067
129.403,157.244
68.578,157.422
97.745,157.600
30.091,157.778
139.444,157.956
76.100,158.133
105.056,158.311
42.249,158.489
120.648,158.667
60.644,158.844
90.560,159.022
8.014,159.200
170.515,159.378
89.217,159.556
119.100,159.733
59.091,159.911
137.420,160.089
74.712,160.267
103.670,160.444
40.211,160.622
149.466,160.800
82.029,160.978
111.182,161.156
50.307,161.333
127.686,161.511
67.128,161.689
96.392,161.867
27.293,162.044
157.492,162.222
85.631,162.400
115.077,162.578
54.818,162.756
132.363,162.933
70.963,163.111
100.010,163.289
34.293,163.467
143.018,163.644
78.395,163.822
107.387,164.000
45.479,164.178
123.287,164.356
63.181,164.533
92.799,164.711
17.979,164.889
162.761,165.067
87.425,165.244
117.070,165.422
56.981,165.600
134.836,165.778
72.847,165.956
101.834,166.133
37.352,166.311
146.107,166.489
80.217,166.667
109.274,166.844
47.939,167.022
125.456,167.200
65.170,167.378
94.593,167.556
23.085,167.733
153.199,167.911
83.833,168.089
113.115,168.267
52.597,168.444
129.984,168.622
69.058,168.800
98.197,168.978
30.972,169.156
140.137,169.333
76.560,169.511
105.520,169.689
42.910,169.867
121.170,170.044
61.156,170.222
91.007,170.400
10.759,170.578
166.097,170.756
88.321,170.933
118.080,171.111
58.042,171.289
136.113,171.467
73.782,171.644
102.750,171.822
38.804,172.000
147.747,172.178
81.124,172.356
110.225,172.533
49.134,172.711
126.563,172.889
66.153,173.067
95.492,173.244
25.271,173.422
155.258,173.600
84.733,173.778
114.092,173.956
53.715,174.133
131.163,174.311
70.014,174.489
99.103,174.667
32.670,174.844
141.555,175.022
77.479,175.200
106.451,175.378
44.209,175.556
122.222,175.733
62.173,175.911
91.903,176.089
14.806,176.267
159.960,176.444
86.529,176.622
116.069,176.800
55.906,176.978
133.587,177.156
71.908,177.333
100.921,177.511
35.851,177.689
144.533,177.867
79.307,178.044
108.328,178.222
46.721,178.400
124.364,178.578
64.180,178.756
93.695,178.933
20.683,179.111
151.277,179.289
82.932,179.467
112.145,179.644
51.461,179.822
128.826,180.000
68.096,180.178
97.294,180.356
29.185,180.533
138.760,180.711
75.638,180.889
104.593,181.067
41.579,181.244
120.129,181.422
60.129,181.600
90.112,181.778
3.582,181.956
177.468,182.133
89.944,182.311
119.935,182.489
59.935,182.667
138.506,182.844
75.465,183.022
104.420,183.200
41.325,183.378
150.930,183.556
82.763,183.733
111.964,183.911
51.246,184.089
128.611,184.267
67.915,184.444
97.124,184.622
28.839,184.800
159.476,184.978
86.361,185.156
115.882,185.333
55.703,185.511
133.356,185.689
71.731,185.867
100.750,186.044
35.563,186.222
144.245,186.400
79.136,186.578
108.151,186.756
46.490,186.933
124.161,187.111
63.993,187.289
93.527,187.467
20.203,187.644
165.415,187.822
88.153,188.000
117.890,188.178
57.844,188.356
135.871,188.533
73.607,188.711
102.578,188.889
38.535,189.067
147.434,189.244
80.954,189.422
110.046,189.600
48.911,189.778
126.354,189.956
65.969,190.133
95.323,190.311
24.875,190.489
154.860,190.667
84.564,190.844
113.908,191.022
53.507,191.200
130.940,191.378
69.835,191.556
98.933,191.733
32.357,191.911
141.286,192.089
77.307,192.267
106.277,192.444
43.968,192.622
122.024,192.800
61.983,192.978
91.735,193.156
14.134,193.333
169.545,193.511
89.049,193.689
118.908,193.867
58.895,194.044
137.172,194.222
74.538,194.400
103.497,194.578
39.950,194.756
149.137,194.933
81.859,195.111
111.002,195.289
50.089,195.467
127.474,195.644
66.946,195.822
96.223,196.000
26.925,196.178
157.058,196.356
85.463,196.533
114.891,196.711
54.613,196.889
132.136,197.067
70.786,197.244
99.840,197.422
33.993,197.600
142.740,197.778
78.223,197.956
107.211,198.133
45.243,198.311
123.086,198.489
62.993,198.667
92.631,198.844
17.427,199.022
162.204,199.200
87.257,199.378
116.882,199.556
56.780,199.733
134.600,199.911
72.671,200.089
101.663,200.267
37.075,200.444
145.807,200.622
80.046,200.800
109.096,200.978
47.712,201.156
125.250,201.333
64.985,201.511
94.425,201.689
22.653,201.867
152.829,202.044
83.664,202.222
112.933,202.400
52.385,202.578
129.766,202.756
68.878,202.933
98.028,203.111
30.644,203.289
139.876,203.467
76.388,203.644
105.346,203.822
42.663,204.000
120.974,204.178
60.964,204.356
90.839,204.533
9.819,204.711
172.398,204.889
89.496,205.067
119.420,205.244
59.417,205.422
137.835,205.600
75.002,205.778
103.958,205.956
40.642,206.133
150.021,206.311
82.311,206.489
111.482,206.667
50.670,206.844
128.040,207.022
67.431,207.200
96.673,207.378
27.897,207.556
158.235,207.733
85.912,207.911
115.386,208.089
55.160,208.267
132.743,208.444
71.259,208.622
100.295,208.800
34.786,208.978
143.486,209.156
78.680,209.333
107.681,209.511
45.870,209.689
123.622,209.867
63.494,210.044
93.079,210.222
18.864,210.400
163.732,210.578
87.705,210.756
117.385,210.933
57.314,211.111
135.232,211.289
73.140,211.467
102.120,211.644
37.811,211.822
146.612,212.000
80.500,212.178
109.570,212.356
48.315,212.533
125.800,212.711
65.478,212.889
94.874,213.067
23.789,213.244
153.826,213.422
84.115,213.600
113.420,213.778
52.948,213.956
130.350,214.133
69.357,214.311
98.480,214.489
31.511,214.667
140.575,214.844
76.848,215.022
105.811,215.200
43.320,215.378
121.497,215.556
61.475,215.733
91.287,215.911
12.167,216.089
167.313,216.267
88.601,216.444
118.398,216.622
58.371,216.800
136.518,216.978
74.073,217.156
103.037,217.333
39.248,217.511
148.275,217.689
81.407,217.867
110.523,218.044
49.503,218.222
126.912,218.400
66.458,218.578
95.773,218.756
25.919,218.933
155.935,219.111
85.014,219.289
114.399,219.467
54.062,219.644
131.536,219.822
70.311,220.000
99.386,220.178
33.184,220.356
142.007,220.533
77.765,220.711
106.743,220.889
44.609,221.067
122.553,221.244
62.489,221.422
92.183,221.600
15.864,221.778
160.793,221.956
86.809,222.133
116.381,222.311
56.244,222.489
133.974,222.667
72.202,222.844
101.206,223.022
36.326,223.200
145.018,223.378
79.592,223.556
108.623,223.733
47.104,223.911
124.704,224.089
64.490,224.267
93.976,224.444
21.461,224.622
151.865,224.800
83.214,224.978
112.447,225.156
51.818,225.333
129.186,225.511
68.398,225.689
97.576,225.867
29.754,226.044
139.186,226.222
75.927,226.400
104.882,226.578
41.998,226.756
120.453,226.933
60.451,227.111
90.392,227.289
6.703,227.467
174.336,227.644
89.720,227.822
119.677,228.000
59.676,228.178
138.169,228.356
75.233,228.533
104.189,228.711
40.985,228.889
150.472,229.067
82.537,229.244
111.723,229.422
50.959,229.600
128.325,229.778
67.674,229.956
96.899,230.133
28.372,230.311
158.847,230.489
86.136,230.667
115.634,230.844
55.432,231.022
133.048,231.200
71.495,231.378
100.522,231.556
35.176,231.733
143.864,231.911
78.908,232.089
107.916,232.267
46.181,232.444
123.891,232.622
63.744,232.800
93.303,232.978
19.544,233.156
164.551,233.333
87.929,233.511
117.637,233.689
57.579,233.867
135.550,234.044
73.373,234.222
102.349,234.400
38.174,234.578
147.021,234.756
80.727,234.933
109.808,235.111
48.614,235.289
126.077,235.467
65.724,235.644
95.098,235.822
24.338,236.000
154.338,236.178
84.340,236.356
113.664,236.533
53.228,236.711
130.645,236.889
69.596,237.067
98.706,237.244
31.937,237.422
140.929,237.600
77.078,237.778
106.044,237.956
43.645,238.133
121.760,238.311
61.730,238.489
91.511,238.667
13.186,238.844
168.376,239.022
88.825,239.200
118.652,239.378
58.634,239.556
136.844,239.733
74.306,239.911
103.267,240.089
39.600,240.267
148.704,240.444
81.633,240.622
110.762,240.800
49.796,240.978
127.192,241.156
66.702,241.333
95.998,241.511
26.426,241.689
156.490,241.867
85.239,242.044
114.645,242.222
54.338,242.400
131.835,242.578
70.549,242.756
99.613,242.933
33.591,243.111
142.372,243.289
77.994,243.467
106.977,243.644
44.927,243.822
122.819,244.000
62.741,244.178
92.407,244.356
16.663,244.533
161.485,244.711
87.033,244.889
116.631,245.067
56.512,245.244
134.286,245.422
72.437,245.600
101.434,245.778
36.702,245.956
145.411,246.133
79.819,246.311
108.859,246.489
47.409,246.667
124.977,246.844
64.738,247.022
94.200,247.200
22.065,247.378
152.343,247.556
83.439,247.733
112.690,247.911
52.102,248.089
129.475,248.267
68.638,248.444
97.802,248.622
30.202,248.800
139.530,248.978
76.157,249.156
105.114,249.333
42.332,249.511
120.713,249.689
60.708,249.867
90.615,250.044
8.406,250.222
170.861,250.400
89.273,250.578
119.164,250.756
59.156,250.933
137.502,251.111
74.770,251.289
103.728,251.467
40.298,251.644
149.576,251.822
82.085,252.000
111.242,252.178
50.380,252.356
127.756,252.533
67.189,252.711
96.448,252.889
27.415,253.067
157.639,253.244
85.688,253.422
115.138,253.600
54.887,253.778
132.439,253.956
71.023,254.133
100.067,254.311
34.392,254.489
143.111,254.667
78.452,254.844
107.446,255.022
45.557,255.200
123.354,255.378
63.244,255.556
92.855,255.733
18.159,255.911
162.951,256.089
87.481,256.267
117.133,256.444
57.047,256.622
134.915,256.800
72.906,256.978
101.891,257.156
37.444,257.333
146.207,257.511
80.273,257.689
109.333,257.867
48.014,258.044
125.525,258.222
65.232,258.400
94.649,258.578
23.228,258.756
153.323,258.933
83.890,259.111
113.176,259.289
52.667,259.467
130.057,259.644
69.118,259.822
98.254,260.000
31.080,260.178
140.224,260.356
76.618,260.533
105.578,260.711
42.992,260.889
121.235,261.067
61.220,261.244
91.063,261.422
11.054,261.600
166.332,261.778
88.377,261.956
118.143,262.133
58.108,262.311
136.193,262.489
73.840,262.667
102.808,262.844
38.893,263.022
147.852,263.200
81.181,263.378
110.284,263.556
49.208,263.733
126.632,263.911
66.214,264.089
95.548,264.267
25.402,264.444
155.392,264.622
84.789,264.800
114.153,264.978
53.785,265.156
131.237,265.333
70.073,265.511
99.159,265.689
32.773,265.867
141.645,266.044
77.536,266.222
106.510,266.400
44.290,266.578
122.288,266.756
62.237,266.933
91.959,267.111
15.023,267.289
160.124,267.467
86.585,267.644
116.131,267.822
55.974,268.000
133.664,268.178
71.967,268.356
100.978,268.533
35.946,268.711
144.630,268.889
79.364,269.067
108.387,269.244
46.798,269.422
124.432,269.600
64.242,269.778
93.752,269.956
20.841,270.133
151.394,270.311
82.988,270.489
112.206,270.667
51.533,270.844
128.898,271.022
68.157,271.200
97.350,271.378
29.300,271.556
138.845,271.733
75.696,271.911
104.651,272.089
41.663,272.267
120.194,272.444
60.194,272.622
90.168,272.800
4.387,272.978
175.613,273.156
89.832,273.333
119.806,273.511
59.806,273.689
138.337,273.867
75.349,274.044
104.304,274.222
41.155,274.400
150.700,274.578
82.650,274.756
111.843,274.933
51.102,275.111
128.467,275.289
67.794,275.467
97.012,275.644
28.606,275.822
159.159,276.000
86.248,276.178
115.758,276.356
55.568,276.533
133.202,276.711
71.613,276.889
100.636,277.067
35.370,277.244
144.054,277.422
79.022,277.600
108.033,277.778
46.336,277.956
124.026,278.133
63.869,278.311
93.415,278.489
19.876,278.667
164.977,278.844
88.041,279.022
117.763,279.200
57.712,279.378
135.710,279.556
73.490,279.733
102.464,279.911
38.355,280.089
147.227,280.267
80.841,280.444
109.927,280.622
48.763,280.800
126.215,280.978
65.847,281.156
95.211,281.333
24.608,281.511
154.598,281.689
84.452,281.867
113.786,282.044
53.368,282.222
130.792,282.400
69.716,282.578
98.819,282.756
32.148,282.933
141.107,283.111
77.192,283.289
106.160,283.467
43.807,283.644
121.892,283.822
61.857,284.000
91.623,284.178
13.668,284.356
168.946,284.533
88.937,284.711
118.780,284.889
58.765,285.067
137.008,285.244
74.422,285.422
103.382,285.600
39.776,285.778
148.920,285.956
81.746,286.133
110.882,286.311
49.943,286.489
127.333,286.667
66.824,286.844
96.110,287.022
26.677,287.200
156.772,287.378
85.351,287.556
114.768,287.733
54.475,287.911
131.986,288.089
70.667,288.267
99.727,288.444
33.793,288.622
142.556,288.800
78.109,288.978
107.094,289.156
45.085,289.333
122.953,289.511
62.867,289.689
92.519,289.867
17.049,290.044
161.841,290.222
87.145,290.400
116.756,290.578
56.646,290.756
134.443,290.933
72.554,291.111
101.548,291.289
36.889,291.467
145.608,291.644
79.933,291.822
108.977,292.000
47.561,292.178
125.113,292.356
64.862,292.533
94.312,292.711
22.361,292.889
152.585,293.067
83.552,293.244
112.811,293.422
52.244,293.600
129.620,293.778
68.758,293.956
97.915,294.133
30.424,294.311
139.702,294.489
76.272,294.667
105.230,294.844
42.498,295.022
120.844,295.200
60.836,295.378
90.727,295.556
9.139,295.733
171.594,295.911
89.385,296.089
119.292,296.267
59.287,296.444
137.668,296.622
74.886,296.800
103.843,296.978
40.470,297.156
149.798,297.333
82.198,297.511
111.362,297.689
50.525,297.867
127.898,298.044
67.310,298.222
96.561,298.400
27.657,298.578
157.935,298.756
85.800,298.933
115.262,299.111
55.023,299.289
132.591,299.467
71.141,299.644
100.181,299.822
34.589,300.000
143.298,300.178
78.566,300.356
107.563,300.533
45.714,300.711
123.488,300.889
63.369,301.067
92.967,301.244
18.515,301.422
163.337,301.600
87.593,301.778
117.259,301.956
57.181,302.133
135.073,302.311
73.023,302.489
102.006,302.667
37.628,302.844
146.409,303.022
80.387,303.200
109.451,303.378
48.165,303.556
125.662,303.733
65.355,303.911
94.761,304.089
23.510,304.267
153.574,304.444
84.002,304.622
113.298,304.800
52.808,304.978
130.204,305.156
69.238,305.333
98.367,305.511
31.296,305.689
140.400,305.867
76.733,306.044
105.694,306.222
43.156,306.400
121.366,306.578
61.348,306.756
91.175,306.933
11.624,307.111
166.814,307.289
88.489,307.467
118.270,307.644
58.240,307.822
136.355,308.000
73.956,308.178
102.922,308.356
39.071,308.533
148.063,308.711
81.294,308.889
110.404,309.067
49.355,309.244
126.772,309.422
66.336,309.600
95.660,309.778
25.662,309.956
155.662,310.133
84.902,310.311
114.276,310.489
53.923,310.667
131.386,310.844
70.192,311.022
99.273,311.200
32.979,311.378
141.826,311.556
77.651,311.733
106.627,311.911
44.450,312.089
122.421,312.267
62.363,312.444
92.071,312.622
15.449,312.800
160.456,312.978
86.697,313.156
116.256,313.333
56.109,313.511
133.819,313.689
72.084,313.867
101.092,314.044
36.136,314.222
144.824,314.400
79.478,314.578
108.505,314.756
46.952,314.933
124.568,315.111
64.366,315.289
93.864,315.467
21.153,315.644
151.628,315.822
83.101,316.000
112.326,316.178
51.675,316.356
129.041,316.533
68.277,316.711
97.463,316.889
29.528,317.067
139.015,317.244
75.811,317.422
104.767,317.600
41.831,317.778
120.324,317.956
60.323,318.133
90.280,318.311
5.664,318.489
173.297,318.667
89.608,318.844
119.549,319.022
59.547,319.200
138.002,319.378
75.118,319.556
104.073,319.733
40.814,319.911
150.246,320.089
82.424,320.267
111.602,320.444
50.814,320.622
128.182,320.800
67.553,320.978
96.786,321.156
28.135,321.333
158.539,321.511
86.024,321.689
115.510,321.867
55.296,322.044
132.896,322.222
71.377,322.400
100.408,322.578
34.982,322.756
143.674,322.933
78.794,323.111
107.798,323.289
46.026,323.467
123.756,323.644
63.619,323.822
93.191,324.000
19.207,324.178
164.136,324.356
87.817,324.533
117.511,324.711
57.447,324.889
135.391,325.067
73.257,325.244
102.235,325.422
37.993,325.600
146.816,325.778
80.614,325.956
109.689,326.133
48.464,326.311
125.938,326.489
65.601,326.667
94.986,326.844
24.065,327.022
154.081,327.200
84.227,327.378
113.542,327.556
53.088,327.733
130.497,327.911
69.477,328.089
98.593,328.267
31.725,328.444
140.752,328.622
76.963,328.800
105.927,328.978
43.482,329.156
121.629,329.333
61.602,329.511
91.399,329.689
12.687,329.867
167.833,330.044
88.713,330.222
118.525,330.400
58.503,330.578
136.680,330.756
74.189,330.933
103.152,331.111
39.425,331.289
148.489,331.467
81.520,331.644
110.643,331.822
49.650,332.000
127.052,332.178
66.580,332.356
95.885,332.533
26.174,332.711
156.211,332.889
85.126,333.067
114.522,333.244
54.200,333.422
131.685,333.600
70.430,333.778
99.500,333.956
33.388,334.133
142.189,334.311
77.880,334.489
106.860,334.667
44.768,334.844
122.686,335.022
62.615,335.200
92.295,335.378
16.268,335.556
161.136,335.733
86.921,335.911
116.506,336.089
56.378,336.267
134.130,336.444
72.319,336.622
101.320,336.800
36.514,336.978
145.214,337.156
79.705,337.333
108.741,337.511
47.257,337.689
124.840,337.867
64.614,338.044
94.088,338.222
21.765,338.400
152.103,338.578
83.327,338.756
112.569,338.933
51.960,339.111
129.330,339.289
68.518,339.467
97.689,339.644
29.979,339.822
139.358,340.000
76.042,340.178
104.998,340.356
42.165,340.533
120.583,340.711
60.580,340.889
90.504,341.067
7.602,341.244
170.181,341.422
89.161,341.600
119.036,341.778
59.026,341.956
137.337,342.133
74.654,342.311
103.612,342.489
40.124,342.667
149.356,342.844
81.972,343.022
111.122,343.200
50.234,343.378
127.615,343.556
67.067,343.733
96.336,343.911
27.171,344.089
157.347,344.267
85.575,344.444
115.015,344.622
54.750,344.800
132.288,344.978
70.904,345.156
99.954,345.333
34.193,345.511
142.925,345.689
78.337,345.867
107.329,346.044
45.400,346.222
123.220,346.400
63.118,346.578
92.743,346.756
17.796,346.933
162.573,347.111
87.369,347.289
117.007,347.467
56.914,347.644
134.757,347.822
72.789,348.000
101.777,348.178
37.260,348.356
146.007,348.533
80.160,348.711
109.214,348.889
47.864,349.067
125.387,349.244
65.109,349.422
94.537,349.600
22.942,349.778
153.075,349.956
83.777,350.133
113.054,350.311
52.526,350.489
129.911,350.667
68.998,350.844
98.141,351.022
30.863,351.200
140.050,351.378
76.503,351.556
105.462,351.733
42.828,351.911
121.105,352.089
61.092,352.267
90.951,352.444
10.455,352.622
165.866,352.800
88.265,352.978
118.017,353.156
57.976,353.333
136.032,353.511
73.723,353.689
102.693,353.867
38.714,354.044
147.643,354.222
81.067,354.400
110.165,354.578
49.060,354.756
126.493,354.933
66.092,355.111
95.436,355.289
25.140,355.467
155.125,355.644
84.677,355.822
114.031,356.000
53.646,356.178
131.089,356.356
69.954,356.533
99.046,356.711
32.566,356.889
141.465,357.067
77.422,357.244
106.393,357.422
44.129,357.600
122.156,357.778
62.110,357.956
91.847,358.133
14.585,358.311
159.797,358.489
86.473,358.667
116.007,358.844
55.839,359.022
133.510,359.200
71.849,359.378
100.864,359.556
35.755,359.733
144.437,359.911
